SpectraSuite Data File
++++++++++++++++++++++++++++++++++++
Date: Mon Jun 24 09:45:23 EST 2019
User: Oceanview2
Dark Spectrum Present: Yes
Reference Spectrum Present: Yes
Number of Sampled Component Spectra: 1
Spectrometers: USB2G53408
Integration Time (usec): 100000 (USB2G53408)
Spectra Averaged: 9 (USB2G53408)
Boxcar Smoothing: 0 (USB2G53408)
Correct for Electrical Dark: No (USB2G53408)
Strobe/Lamp Enabled: Yes (USB2G53408)
Correct for Detector Non-linearity: No (USB2G53408)
Correct for Stray Light: No (USB2G53408)
Number of Pixels in Processed Spectrum: 651
>>>>>Begin Processed Spectral Data<<<<<
200.00	0.270
201.00	0.136
202.00	0.274
203.00	0.315
204.00	0.175
205.00	0.225
206.00	0.157
207.00	0.319
208.00	0.085
209.00	0.280
210.00	0.181
211.00	0.220
212.00	0.313
213.00	0.266
214.00	0.300
215.00	0.385
216.00	0.226
217.00	0.206
218.00	0.332
219.00	0.212
220.00	0.306
221.00	0.328
222.00	0.208
223.00	0.207
224.00	0.201
225.00	0.222
226.00	0.234
227.00	0.228
228.00	0.333
229.00	0.179
230.00	0.154
231.00	0.350
232.00	0.246
233.00	0.180
234.00	0.257
235.00	0.178
236.00	0.217
237.00	0.135
238.00	0.112
239.00	0.102
240.00	0.110
241.00	0.161
242.00	0.254
243.00	0.235
244.00	0.255
245.00	0.139
246.00	0.151
247.00	0.204
248.00	0.068
249.00	0.103
250.00	0.145
251.00	0.160
252.00	0.136
253.00	0.112
254.00	0.061
255.00	0.086
256.00	0.080
257.00	0.049
258.00	0.032
259.00	0.039
260.00	0.031
261.00	0.032
262.00	0.035
263.00	0.023
264.00	0.034
265.00	0.026
266.00	0.028
267.00	0.034
268.00	0.021
269.00	0.028
270.00	0.031
271.00	0.035
272.00	0.025
273.00	0.025
274.00	0.025
275.00	0.032
276.00	0.036
277.00	0.033
278.00	0.035
279.00	0.037
280.00	0.030
281.00	0.035
282.00	0.040
283.00	0.036
284.00	0.038
285.00	0.043
286.00	0.042
287.00	0.044
288.00	0.043
289.00	0.046
290.00	0.047
291.00	0.046
292.00	0.047
293.00	0.044
294.00	0.047
295.00	0.041
296.00	0.040
297.00	0.043
298.00	0.048
299.00	0.046
300.00	0.047
301.00	0.052
302.00	0.053
303.00	0.053
304.00	0.056
305.00	0.059
306.00	0.058
307.00	0.070
308.00	0.072
309.00	0.075
310.00	0.071
311.00	0.079
312.00	0.083
313.00	0.081
314.00	0.083
315.00	0.089
316.00	0.090
317.00	0.091
318.00	0.095
319.00	0.094
320.00	0.092
321.00	0.095
322.00	0.095
323.00	0.091
324.00	0.096
325.00	0.097
326.00	0.094
327.00	0.093
328.00	0.093
329.00	0.089
330.00	0.091
331.00	0.091
332.00	0.088
333.00	0.085
334.00	0.084
335.00	0.080
336.00	0.079
337.00	0.072
338.00	0.072
339.00	0.064
340.00	0.063
341.00	0.059
342.00	0.051
343.00	0.053
344.00	0.051
345.00	0.046
346.00	0.043
347.00	0.044
348.00	0.037
349.00	0.036
350.00	0.032
351.00	0.032
352.00	0.032
353.00	0.028
354.00	0.025
355.00	0.022
356.00	0.023
357.00	0.020
358.00	0.024
359.00	0.023
360.00	0.024
361.00	0.022
362.00	0.021
363.00	0.022
364.00	0.022
365.00	0.024
366.00	0.020
367.00	0.017
368.00	0.018
369.00	0.016
370.00	0.014
371.00	0.013
372.00	0.007
373.00	0.009
374.00	0.005
375.00	0.008
376.00	0.009
377.00	0.002
378.00	0.005
379.00	0.005
380.00	0.003
381.00	0.003
382.00	0.003
383.00	-0.000
384.00	0.002
385.00	0.001
386.00	-0.001
387.00	0.000
388.00	0.001
389.00	0.000
390.00	0.002
391.00	0.001
392.00	0.000
393.00	0.002
394.00	0.000
395.00	0.000
396.00	-0.000
397.00	-0.001
398.00	0.000
399.00	0.002
400.00	-0.001
401.00	-0.001
402.00	0.001
403.00	0.002
404.00	0.001
405.00	0.003
406.00	0.003
407.00	0.003
408.00	0.004
409.00	0.004
410.00	0.004
411.00	0.007
412.00	0.002
413.00	0.008
414.00	0.007
415.00	0.012
416.00	0.015
417.00	0.011
418.00	0.017
419.00	0.018
420.00	0.020
421.00	0.018
422.00	0.022
423.00	0.025
424.00	0.027
425.00	0.027
426.00	0.027
427.00	0.034
428.00	0.035
429.00	0.037
430.00	0.038
431.00	0.040
432.00	0.043
433.00	0.046
434.00	0.049
435.00	0.049
436.00	0.052
437.00	0.053
438.00	0.057
439.00	0.062
440.00	0.063
441.00	0.070
442.00	0.074
443.00	0.082
444.00	0.084
445.00	0.090
446.00	0.099
447.00	0.106
448.00	0.113
449.00	0.117
450.00	0.129
451.00	0.134
452.00	0.141
453.00	0.149
454.00	0.152
455.00	0.163
456.00	0.169
457.00	0.173
458.00	0.179
459.00	0.180
460.00	0.185
461.00	0.194
462.00	0.193
463.00	0.199
464.00	0.205
465.00	0.208
466.00	0.211
467.00	0.217
468.00	0.226
469.00	0.234
470.00	0.235
471.00	0.247
472.00	0.261
473.00	0.272
474.00	0.287
475.00	0.303
476.00	0.319
477.00	0.337
478.00	0.358
479.00	0.376
480.00	0.398
481.00	0.414
482.00	0.433
483.00	0.450
484.00	0.465
485.00	0.480
486.00	0.490
487.00	0.509
488.00	0.510
489.00	0.517
490.00	0.517
491.00	0.515
492.00	0.514
493.00	0.511
494.00	0.505
495.00	0.498
496.00	0.490
497.00	0.486
498.00	0.484
499.00	0.473
500.00	0.476
501.00	0.478
502.00	0.475
503.00	0.481
504.00	0.481
505.00	0.485
506.00	0.498
507.00	0.503
508.00	0.516
509.00	0.532
510.00	0.552
511.00	0.572
512.00	0.591
513.00	0.617
514.00	0.645
515.00	0.665
516.00	0.689
517.00	0.711
518.00	0.728
519.00	0.743
520.00	0.768
521.00	0.779
522.00	0.776
523.00	0.784
524.00	0.782
525.00	0.773
526.00	0.759
527.00	0.745
528.00	0.724
529.00	0.706
530.00	0.686
531.00	0.661
532.00	0.634
533.00	0.607
534.00	0.571
535.00	0.540
536.00	0.509
537.00	0.478
538.00	0.448
539.00	0.419
540.00	0.387
541.00	0.363
542.00	0.338
543.00	0.314
544.00	0.289
545.00	0.263
546.00	0.249
547.00	0.222
548.00	0.205
549.00	0.190
550.00	0.177
551.00	0.160
552.00	0.145
553.00	0.132
554.00	0.124
555.00	0.108
556.00	0.105
557.00	0.092
558.00	0.089
559.00	0.080
560.00	0.071
561.00	0.065
562.00	0.064
563.00	0.058
564.00	0.054
565.00	0.051
566.00	0.046
567.00	0.040
568.00	0.038
569.00	0.036
570.00	0.033
571.00	0.030
572.00	0.030
573.00	0.027
574.00	0.025
575.00	0.025
576.00	0.025
577.00	0.021
578.00	0.021
579.00	0.019
580.00	0.017
581.00	0.015
582.00	0.018
583.00	0.017
584.00	0.014
585.00	0.014
586.00	0.017
587.00	0.016
588.00	0.017
589.00	0.017
590.00	0.015
591.00	0.015
592.00	0.015
593.00	0.012
594.00	0.018
595.00	0.014
596.00	0.015
597.00	0.014
598.00	0.014
599.00	0.011
600.00	0.013
601.00	0.013
602.00	0.016
603.00	0.016
604.00	0.014
605.00	0.011
606.00	0.014
607.00	0.010
608.00	0.015
609.00	0.012
610.00	0.015
611.00	0.013
612.00	0.015
613.00	0.013
614.00	0.012
615.00	0.015
616.00	0.015
617.00	0.014
618.00	0.016
619.00	0.015
620.00	0.016
621.00	0.016
622.00	0.016
623.00	0.015
624.00	0.015
625.00	0.017
626.00	0.016
627.00	0.014
628.00	0.017
629.00	0.017
630.00	0.016
631.00	0.020
632.00	0.017
633.00	0.017
634.00	0.020
635.00	0.018
636.00	0.018
637.00	0.016
638.00	0.018
639.00	0.017
640.00	0.018
641.00	0.019
642.00	0.019
643.00	0.019
644.00	0.017
645.00	0.018
646.00	0.019
647.00	0.017
648.00	0.016
649.00	0.017
650.00	0.017
651.00	0.017
652.00	0.017
653.00	0.016
654.00	0.017
655.00	0.017
656.00	0.012
657.00	0.014
658.00	0.017
659.00	0.016
660.00	0.019
661.00	0.017
662.00	0.017
663.00	0.016
664.00	0.017
665.00	0.018
666.00	0.019
667.00	0.018
668.00	0.018
669.00	0.019
670.00	0.017
671.00	0.018
672.00	0.018
673.00	0.016
674.00	0.018
675.00	0.016
676.00	0.015
677.00	0.018
678.00	0.016
679.00	0.015
680.00	0.016
681.00	0.018
682.00	0.016
683.00	0.018
684.00	0.016
685.00	0.015
686.00	0.016
687.00	0.019
688.00	0.017
689.00	0.016
690.00	0.017
691.00	0.017
692.00	0.017
693.00	0.020
694.00	0.018
695.00	0.015
696.00	0.018
697.00	0.015
698.00	0.016
699.00	0.018
700.00	0.016
701.00	0.015
702.00	0.019
703.00	0.018
704.00	0.016
705.00	0.016
706.00	0.017
707.00	0.017
708.00	0.018
709.00	0.019
710.00	0.020
711.00	0.016
712.00	0.016
713.00	0.018
714.00	0.016
715.00	0.015
716.00	0.016
717.00	0.017
718.00	0.019
719.00	0.017
720.00	0.019
721.00	0.019
722.00	0.015
723.00	0.019
724.00	0.016
725.00	0.019
726.00	0.018
727.00	0.018
728.00	0.018
729.00	0.017
730.00	0.017
731.00	0.017
732.00	0.017
733.00	0.016
734.00	0.017
735.00	0.016
736.00	0.018
737.00	0.017
738.00	0.017
739.00	0.018
740.00	0.018
741.00	0.016
742.00	0.018
743.00	0.017
744.00	0.016
745.00	0.017
746.00	0.019
747.00	0.017
748.00	0.018
749.00	0.019
750.00	0.016
751.00	0.016
752.00	0.018
753.00	0.019
754.00	0.016
755.00	0.019
756.00	0.019
757.00	0.019
758.00	0.016
759.00	0.020
760.00	0.020
761.00	0.017
762.00	0.019
763.00	0.017
764.00	0.016
765.00	0.016
766.00	0.019
767.00	0.019
768.00	0.019
769.00	0.019
770.00	0.017
771.00	0.019
772.00	0.017
773.00	0.019
774.00	0.020
775.00	0.021
776.00	0.018
777.00	0.019
778.00	0.020
779.00	0.018
780.00	0.023
781.00	0.019
782.00	0.018
783.00	0.020
784.00	0.018
785.00	0.017
786.00	0.016
787.00	0.020
788.00	0.018
789.00	0.021
790.00	0.019
791.00	0.014
792.00	0.019
793.00	0.016
794.00	0.016
795.00	0.018
796.00	0.015
797.00	0.015
798.00	0.017
799.00	0.013
800.00	0.016
801.00	0.016
802.00	0.017
803.00	0.017
804.00	0.014
805.00	0.014
806.00	0.014
807.00	0.014
808.00	0.013
809.00	0.013
810.00	0.013
811.00	0.011
812.00	0.011
813.00	0.009
814.00	0.008
815.00	0.010
816.00	0.004
817.00	0.003
818.00	0.004
819.00	0.007
820.00	0.006
821.00	0.004
822.00	-0.002
823.00	-0.001
824.00	0.002
825.00	-0.003
826.00	0.002
827.00	0.001
828.00	0.000
829.00	0.000
830.00	0.001
831.00	-0.002
832.00	-0.002
833.00	-0.001
834.00	-0.001
835.00	-0.009
836.00	-0.003
837.00	-0.003
838.00	-0.004
839.00	-0.003
840.00	-0.001
841.00	-0.001
842.00	0.005
843.00	-0.003
844.00	0.007
845.00	-0.000
846.00	-0.000
847.00	0.004
848.00	0.006
849.00	0.000
850.00	0.012
>>>>>End Processed Spectral Data<<<<<
