SpectraSuite Data File
++++++++++++++++++++++++++++++++++++
Date: Mon Jun 24 09:52:38 EST 2019
User: Oceanview2
Dark Spectrum Present: Yes
Reference Spectrum Present: Yes
Number of Sampled Component Spectra: 1
Spectrometers: USB2G53408
Integration Time (usec): 100000 (USB2G53408)
Spectra Averaged: 9 (USB2G53408)
Boxcar Smoothing: 0 (USB2G53408)
Correct for Electrical Dark: No (USB2G53408)
Strobe/Lamp Enabled: Yes (USB2G53408)
Correct for Detector Non-linearity: No (USB2G53408)
Correct for Stray Light: No (USB2G53408)
Number of Pixels in Processed Spectrum: 651
>>>>>Begin Processed Spectral Data<<<<<
200.00	0.633
201.00	0.431
202.00	1.324
203.00	0.783
204.00	0.835
205.00	0.828
206.00	0.895
207.00	0.465
208.00	0.482
209.00	0.451
210.00	0.581
211.00	0.693
212.00	1.156
213.00	-0.000
214.00	0.629
215.00	0.874
216.00	0.751
217.00	0.714
218.00	0.844
219.00	0.711
220.00	0.499
221.00	0.635
222.00	0.701
223.00	0.580
224.00	0.622
225.00	0.705
226.00	1.169
227.00	0.543
228.00	0.719
229.00	0.543
230.00	0.379
231.00	0.473
232.00	0.537
233.00	0.442
234.00	0.408
235.00	0.437
236.00	0.490
237.00	0.561
238.00	0.753
239.00	0.422
240.00	0.458
241.00	0.477
242.00	0.497
243.00	0.462
244.00	0.500
245.00	0.344
246.00	0.335
247.00	0.513
248.00	0.259
249.00	0.252
250.00	0.314
251.00	0.401
252.00	0.308
253.00	0.277
254.00	0.227
255.00	0.199
256.00	0.189
257.00	0.155
258.00	0.130
259.00	0.128
260.00	0.122
261.00	0.119
262.00	0.103
263.00	0.090
264.00	0.090
265.00	0.096
266.00	0.094
267.00	0.101
268.00	0.084
269.00	0.101
270.00	0.097
271.00	0.105
272.00	0.099
273.00	0.094
274.00	0.096
275.00	0.093
276.00	0.094
277.00	0.094
278.00	0.089
279.00	0.088
280.00	0.080
281.00	0.080
282.00	0.075
283.00	0.070
284.00	0.063
285.00	0.067
286.00	0.065
287.00	0.062
288.00	0.058
289.00	0.064
290.00	0.055
291.00	0.059
292.00	0.058
293.00	0.056
294.00	0.054
295.00	0.056
296.00	0.055
297.00	0.054
298.00	0.052
299.00	0.053
300.00	0.048
301.00	0.054
302.00	0.051
303.00	0.051
304.00	0.046
305.00	0.050
306.00	0.047
307.00	0.054
308.00	0.053
309.00	0.057
310.00	0.050
311.00	0.053
312.00	0.057
313.00	0.054
314.00	0.054
315.00	0.052
316.00	0.054
317.00	0.051
318.00	0.058
319.00	0.057
320.00	0.054
321.00	0.060
322.00	0.058
323.00	0.054
324.00	0.063
325.00	0.062
326.00	0.060
327.00	0.058
328.00	0.060
329.00	0.057
330.00	0.058
331.00	0.053
332.00	0.053
333.00	0.054
334.00	0.049
335.00	0.049
336.00	0.049
337.00	0.049
338.00	0.054
339.00	0.054
340.00	0.057
341.00	0.047
342.00	0.047
343.00	0.044
344.00	0.051
345.00	0.048
346.00	0.050
347.00	0.052
348.00	0.047
349.00	0.049
350.00	0.048
351.00	0.049
352.00	0.050
353.00	0.046
354.00	0.048
355.00	0.049
356.00	0.050
357.00	0.047
358.00	0.050
359.00	0.051
360.00	0.051
361.00	0.050
362.00	0.048
363.00	0.048
364.00	0.046
365.00	0.051
366.00	0.050
367.00	0.050
368.00	0.049
369.00	0.051
370.00	0.048
371.00	0.050
372.00	0.044
373.00	0.049
374.00	0.044
375.00	0.051
376.00	0.054
377.00	0.048
378.00	0.052
379.00	0.053
380.00	0.052
381.00	0.052
382.00	0.050
383.00	0.049
384.00	0.052
385.00	0.050
386.00	0.047
387.00	0.050
388.00	0.052
389.00	0.051
390.00	0.052
391.00	0.048
392.00	0.051
393.00	0.053
394.00	0.053
395.00	0.055
396.00	0.053
397.00	0.052
398.00	0.057
399.00	0.057
400.00	0.054
401.00	0.057
402.00	0.055
403.00	0.056
404.00	0.055
405.00	0.057
406.00	0.054
407.00	0.056
408.00	0.056
409.00	0.058
410.00	0.060
411.00	0.058
412.00	0.055
413.00	0.060
414.00	0.057
415.00	0.059
416.00	0.060
417.00	0.056
418.00	0.058
419.00	0.058
420.00	0.057
421.00	0.056
422.00	0.054
423.00	0.056
424.00	0.053
425.00	0.051
426.00	0.053
427.00	0.050
428.00	0.051
429.00	0.049
430.00	0.052
431.00	0.051
432.00	0.050
433.00	0.049
434.00	0.048
435.00	0.047
436.00	0.050
437.00	0.049
438.00	0.046
439.00	0.050
440.00	0.053
441.00	0.052
442.00	0.051
443.00	0.055
444.00	0.052
445.00	0.050
446.00	0.052
447.00	0.052
448.00	0.056
449.00	0.052
450.00	0.052
451.00	0.050
452.00	0.048
453.00	0.049
454.00	0.049
455.00	0.046
456.00	0.047
457.00	0.046
458.00	0.045
459.00	0.043
460.00	0.042
461.00	0.042
462.00	0.044
463.00	0.043
464.00	0.042
465.00	0.044
466.00	0.045
467.00	0.043
468.00	0.044
469.00	0.047
470.00	0.041
471.00	0.043
472.00	0.044
473.00	0.044
474.00	0.044
475.00	0.041
476.00	0.045
477.00	0.042
478.00	0.046
479.00	0.043
480.00	0.043
481.00	0.042
482.00	0.043
483.00	0.042
484.00	0.043
485.00	0.044
486.00	0.042
487.00	0.044
488.00	0.046
489.00	0.044
490.00	0.044
491.00	0.041
492.00	0.042
493.00	0.043
494.00	0.040
495.00	0.042
496.00	0.044
497.00	0.044
498.00	0.045
499.00	0.042
500.00	0.044
501.00	0.046
502.00	0.045
503.00	0.046
504.00	0.044
505.00	0.046
506.00	0.046
507.00	0.046
508.00	0.047
509.00	0.047
510.00	0.049
511.00	0.051
512.00	0.047
513.00	0.052
514.00	0.048
515.00	0.054
516.00	0.055
517.00	0.051
518.00	0.053
519.00	0.051
520.00	0.052
521.00	0.056
522.00	0.055
523.00	0.054
524.00	0.054
525.00	0.056
526.00	0.054
527.00	0.055
528.00	0.058
529.00	0.054
530.00	0.063
531.00	0.061
532.00	0.056
533.00	0.062
534.00	0.066
535.00	0.067
536.00	0.062
537.00	0.064
538.00	0.067
539.00	0.064
540.00	0.065
541.00	0.066
542.00	0.066
543.00	0.070
544.00	0.067
545.00	0.068
546.00	0.075
547.00	0.070
548.00	0.071
549.00	0.072
550.00	0.078
551.00	0.071
552.00	0.079
553.00	0.071
554.00	0.078
555.00	0.075
556.00	0.081
557.00	0.072
558.00	0.083
559.00	0.077
560.00	0.080
561.00	0.083
562.00	0.084
563.00	0.088
564.00	0.080
565.00	0.085
566.00	0.085
567.00	0.085
568.00	0.093
569.00	0.090
570.00	0.086
571.00	0.089
572.00	0.093
573.00	0.089
574.00	0.094
575.00	0.097
576.00	0.100
577.00	0.100
578.00	0.106
579.00	0.106
580.00	0.108
581.00	0.107
582.00	0.111
583.00	0.120
584.00	0.120
585.00	0.122
586.00	0.127
587.00	0.128
588.00	0.135
589.00	0.136
590.00	0.138
591.00	0.141
592.00	0.142
593.00	0.143
594.00	0.147
595.00	0.150
596.00	0.156
597.00	0.158
598.00	0.156
599.00	0.153
600.00	0.156
601.00	0.161
602.00	0.164
603.00	0.163
604.00	0.167
605.00	0.164
606.00	0.169
607.00	0.169
608.00	0.173
609.00	0.175
610.00	0.178
611.00	0.178
612.00	0.183
613.00	0.184
614.00	0.188
615.00	0.195
616.00	0.201
617.00	0.206
618.00	0.212
619.00	0.218
620.00	0.221
621.00	0.231
622.00	0.239
623.00	0.246
624.00	0.255
625.00	0.268
626.00	0.277
627.00	0.281
628.00	0.294
629.00	0.305
630.00	0.314
631.00	0.330
632.00	0.344
633.00	0.352
634.00	0.368
635.00	0.377
636.00	0.390
637.00	0.400
638.00	0.410
639.00	0.421
640.00	0.431
641.00	0.444
642.00	0.448
643.00	0.460
644.00	0.466
645.00	0.470
646.00	0.473
647.00	0.480
648.00	0.479
649.00	0.482
650.00	0.485
651.00	0.485
652.00	0.484
653.00	0.482
654.00	0.479
655.00	0.473
656.00	0.459
657.00	0.466
658.00	0.461
659.00	0.455
660.00	0.452
661.00	0.449
662.00	0.445
663.00	0.443
664.00	0.438
665.00	0.435
666.00	0.437
667.00	0.434
668.00	0.437
669.00	0.440
670.00	0.440
671.00	0.448
672.00	0.449
673.00	0.460
674.00	0.468
675.00	0.482
676.00	0.493
677.00	0.507
678.00	0.526
679.00	0.538
680.00	0.561
681.00	0.578
682.00	0.608
683.00	0.627
684.00	0.654
685.00	0.681
686.00	0.706
687.00	0.742
688.00	0.772
689.00	0.802
690.00	0.832
691.00	0.863
692.00	0.898
693.00	0.928
694.00	0.962
695.00	0.990
696.00	1.024
697.00	1.059
698.00	1.079
699.00	1.120
700.00	1.122
701.00	1.154
702.00	1.171
703.00	1.180
704.00	1.188
705.00	1.199
706.00	1.222
707.00	1.221
708.00	1.214
709.00	1.202
710.00	1.199
711.00	1.169
712.00	1.158
713.00	1.133
714.00	1.106
715.00	1.079
716.00	1.046
717.00	1.025
718.00	0.996
719.00	0.957
720.00	0.923
721.00	0.881
722.00	0.836
723.00	0.802
724.00	0.760
725.00	0.717
726.00	0.679
727.00	0.637
728.00	0.599
729.00	0.561
730.00	0.526
731.00	0.490
732.00	0.457
733.00	0.425
734.00	0.390
735.00	0.368
736.00	0.343
737.00	0.316
738.00	0.293
739.00	0.277
740.00	0.256
741.00	0.233
742.00	0.218
743.00	0.204
744.00	0.185
745.00	0.173
746.00	0.162
747.00	0.149
748.00	0.142
749.00	0.135
750.00	0.120
751.00	0.115
752.00	0.112
753.00	0.109
754.00	0.100
755.00	0.100
756.00	0.094
757.00	0.093
758.00	0.079
759.00	0.082
760.00	0.081
761.00	0.076
762.00	0.073
763.00	0.071
764.00	0.072
765.00	0.068
766.00	0.066
767.00	0.065
768.00	0.063
769.00	0.066
770.00	0.063
771.00	0.061
772.00	0.056
773.00	0.065
774.00	0.061
775.00	0.059
776.00	0.057
777.00	0.060
778.00	0.060
779.00	0.054
780.00	0.059
781.00	0.055
782.00	0.054
783.00	0.055
784.00	0.055
785.00	0.052
786.00	0.057
787.00	0.060
788.00	0.060
789.00	0.058
790.00	0.056
791.00	0.050
792.00	0.053
793.00	0.054
794.00	0.054
795.00	0.052
796.00	0.048
797.00	0.048
798.00	0.049
799.00	0.046
800.00	0.045
801.00	0.045
802.00	0.044
803.00	0.038
804.00	0.040
805.00	0.037
806.00	0.038
807.00	0.035
808.00	0.035
809.00	0.034
810.00	0.026
811.00	0.026
812.00	0.024
813.00	0.025
814.00	0.022
815.00	0.018
816.00	0.012
817.00	0.009
818.00	0.011
819.00	0.006
820.00	0.000
821.00	0.000
822.00	-0.005
823.00	-0.003
824.00	-0.004
825.00	-0.010
826.00	-0.011
827.00	-0.009
828.00	-0.011
829.00	-0.011
830.00	-0.015
831.00	-0.018
832.00	-0.015
833.00	-0.017
834.00	-0.021
835.00	-0.021
836.00	-0.014
837.00	-0.020
838.00	-0.011
839.00	-0.015
840.00	-0.017
841.00	-0.003
842.00	-0.003
843.00	-0.010
844.00	-0.004
845.00	-0.008
846.00	-0.004
847.00	0.003
848.00	0.008
849.00	0.003
850.00	0.006
>>>>>End Processed Spectral Data<<<<<
